{
  "resourceType": "Bundle",
  "id": "f9121610-eb24-4937-964e-f38976bde4ad",
  "meta": {
    "versionId": "3dbb2740-d3f1-419f-9957-8050be68ea36",
    "lastUpdated": "2020-12-23T14:39:37.969+00:00"
  },
  "type": "searchset",
  "total": 1,
  "entry": [
    {
      "fullUrl": "8b8bea2a-b2de-4442-9ecc-d1f8e2e1f42d",
      "resource": {
        "resourceType": "Observation",
        "id": "8b8bea2a-b2de-4442-9ecc-d1f8e2e1f42d",
       
        "identifier": [
          {
            "system": "https://tools.ietf.org/html/rfc4122",
            "value": "ea45c120-504f-40f2-a79f-cb8cd3dd1307"
          }
        ],
        "status": "final",
        "category": [
          {
            "coding": [
              {
                "system": "http://terminology.hl7.org/CodeSystem/observation-category",
                "code": "survey",
                "display": "Survey"
              }
            ]
          }
        ],
        "code": {
          "coding": [
            {
              "system": "http://snomed.info/sct",
              "code": "1104051000000101",
              "display": "Royal College of Physicians NEWS2 (National Early Warning Score 2) total score"
            }
          ]
        },
        "subject": {
          "reference": "Patient/30d3de6f-e800-47fa-b610-b02c7c8e9d57"
        },
        "effectiveDateTime": "2018-10-04T14:17:59+01:00",
        "performer": [
          {
            "reference": "Performer/627be677-3eb2-4db4-9570-5669fd8c92f5"
          },
          {
            "reference": "Organization/cdaea3db-8b40-41dc-9834-b42503e12382"
          }
        ],
        "valueQuantity": {
          "value": 6,
          "unit": "ScoreOf",
          "system": "http://unitsofmeasure.org",
          "code": "{ScoreOf}"
        },
        "derivedFrom": [
          {
            "reference": "Observation/84665258-b376-4223-b309-e6716d1303f6"
          },
          {
            "reference": "Observation/e273ecfb-4f8f-43ec-aa34-66de58d705fd"
          },
          {
            "reference": "Observation/c1abbdf5-44fb-4a3d-9027-fc7e62bebabb"
          },
          {
            "reference": "Observation/64bf263f-475c-4fce-a5d6-1274ed0e22f7"
          },
          {
            "reference": "Observation/764d6298-b444-4489-9882-1cf68d969330"
          },
          {
            "reference": "Observation/1e4fe18a-e4fb-4e6d-9246-472839623088"
          },
          {
            "reference": "Observation/9639d641-974d-40a9-8a4e-f99ea0d4c3b8"
          }
        ]
      }
    },
    {
      "fullUrl": "dbf6ec86-ebd7-4490-8586-596328519ed2",
      "resource": {
        "resourceType": "Observation",
        "id": "dbf6ec86-ebd7-4490-8586-596328519ed2",
      
        "identifier": [
          {
            "system": "https://tools.ietf.org/html/rfc4122",
            "value": "2936d52c-5ae3-434b-8978-bfa7563ed31a"
          }
        ],
        "status": "final",
        "category": [
          {
            "coding": [
              {
                "system": "http://terminology.hl7.org/CodeSystem/observation-category",
                "code": "vital-signs",
                "display": "Vital Signs"
              }
            ]
          }
        ],
        "code": {
          "coding": [
            {
              "system": "http://snomed.info/sct",
              "code": "86290005",
              "display": "Respiratory rate"
            },
            {
              "system": "http://loinc.org",
              "code": "9279-1",
              "display": "Respiratory Rate"
            }
          ]
        },
        "subject": {
          "reference": "Patient/ad2c58ab-ffab-4366-9c76-b0322e22e881"
        },
        "effectiveDateTime": "2018-10-04T14:17:59+01:00",
        "performer": [
          {
            "reference": "Performer/7096e518-2638-4c00-ab0e-504c20cd50b6"
          },
          {
            "reference": "Organization/25d5ad55-5657-4cbe-9b8b-2e993f19286e"
          }
        ],
        "valueQuantity": {
          "value": 21,
          "unit": "Breaths / minute",
          "system": "http://unitsofmeasure.org",
          "code": "{Breaths}/min"
        }
      }
    },
    {
      "fullUrl": "f0d26102-3a50-4993-9203-6089b625fc2f",
      "resource": {
        "resourceType": "Observation",
        "id": "f0d26102-3a50-4993-9203-6089b625fc2f",
     
        "identifier": [
          {
            "system": "https://tools.ietf.org/html/rfc4122",
            "value": "99a2f708-66aa-4e7f-a09c-5742600f376d"
          }
        ],
        "status": "final",
        "category": [
          {
            "coding": [
              {
                "system": "http://terminology.hl7.org/CodeSystem/observation-category",
                "code": "vital-signs",
                "display": "Vital Signs"
              }
            ]
          }
        ],
        "code": {
          "coding": [
            {
              "system": "http://snomed.info/sct",
              "code": "364075005",
              "display": "Heart rate"
            },
            {
              "system": "http://snomed.info/sct",
              "code": "78564009",
              "display": "Pulse rate",
              "userSelected": true
            },
            {
              "system": "http://loinc.org",
              "code": "8867-4",
              "display": "Heart rate"
            }
          ]
        },
        "subject": {
          "reference": "Patient/ad2c58ab-ffab-4366-9c76-b0322e22e881"
        },
        "effectiveDateTime": "2018-10-04T14:17:59+01:00",
        "performer": [
          {
            "reference": "Performer/7096e518-2638-4c00-ab0e-504c20cd50b6"
          },
          {
            "reference": "Organization/25d5ad55-5657-4cbe-9b8b-2e993f19286e"
          }
        ],
        "valueQuantity": {
          "value": 95,
          "unit": "heart beats per minute",
          "system": "http://unitsofmeasure.org",
          "code": "{beats}/min"
        }
      }
    },
    {
      "fullUrl": "1a1273f4-dd78-4bb4-bb98-ed6456caa2a2",
      "resource": {
        "resourceType": "Observation",
        "id": "1a1273f4-dd78-4bb4-bb98-ed6456caa2a2",
        
        "identifier": [
          {
            "system": "https://tools.ietf.org/html/rfc4122",
            "value": "de2273eb-ecb0-4205-862e-6a43b8f71ec1"
          }
        ],
        "status": "final",
        "category": [
          {
            "coding": [
              {
                "system": "http://terminology.hl7.org/CodeSystem/observation-category",
                "code": "vital-signs",
                "display": "Vital Signs"
              }
            ]
          }
        ],
        "code": {
          "coding": [
            {
              "system": "http://snomed.info/sct",
              "code": "103228002",
              "display": "Hemoglobin saturation with oxygen"
            },
            {
              "system": "http://loinc.org",
              "code": "2708-6",
              "display": "Oxygen saturation in Arterial blood"
            }
          ]
        },
        "subject": {
          "reference": "Patient/ad2c58ab-ffab-4366-9c76-b0322e22e881"
        },
        "effectiveDateTime": "2018-10-04T14:17:59+01:00",
        "performer": [
          {
            "reference": "Performer/7096e518-2638-4c00-ab0e-504c20cd50b6"
          },
          {
            "reference": "Organization/25d5ad55-5657-4cbe-9b8b-2e993f19286e"
          }
        ],
        "valueQuantity": {
          "value": 93,
          "unit": "percent",
          "system": "http://unitsofmeasure.org",
          "code": "%"
        }
      }
    },
    {
      "fullUrl": "c756fd32-f04e-45a9-b02f-2461ed53c736",
      "resource": {
        "resourceType": "Observation",
        "id": "c756fd32-f04e-45a9-b02f-2461ed53c736",
      
        "identifier": [
          {
            "system": "https://tools.ietf.org/html/rfc4122",
            "value": "ce084616-c540-4032-aeb3-ef35347600c5"
          }
        ],
        "status": "final",
        "code": {
          "coding": [
            {
              "system": "http://snomed.info/sct",
              "code": "722742002",
              "display": "Breathing room air"
            }
          ]
        },
        "subject": {
          "reference": "Patient/ad2c58ab-ffab-4366-9c76-b0322e22e881"
        },
        "effectiveDateTime": "2018-10-04T14:17:59+01:00",
        "performer": [
          {
            "reference": "Performer/7096e518-2638-4c00-ab0e-504c20cd50b6"
          },
          {
            "reference": "Organization/25d5ad55-5657-4cbe-9b8b-2e993f19286e"
          }
        ]
      }
    },
    {
      "fullUrl": "5a1625e8-938e-4c19-9d3e-a235bfb4b37d",
      "resource": {
        "resourceType": "Observation",
        "id": "5a1625e8-938e-4c19-9d3e-a235bfb4b37d",
     
        "identifier": [
          {
            "system": "https://tools.ietf.org/html/rfc4122",
            "value": "cff7c586-5a41-403b-a276-fc2cce24bf3b"
          }
        ],
        "status": "final",
        "category": [
          {
            "coding": [
              {
                "system": "http://terminology.hl7.org/CodeSystem/observation-category",
                "code": "vital-signs",
                "display": "Vital Signs"
              }
            ]
          }
        ],
        "code": {
          "coding": [
            {
              "system": "http://snomed.info/sct",
              "code": "276885007",
              "display": "Core body temperature"
            },
            {
              "system": "http://loinc.org",
              "code": "8310-5",
              "display": "Body temperature"
            }
          ]
        },
        "subject": {
          "reference": "Patient/ad2c58ab-ffab-4366-9c76-b0322e22e881"
        },
        "effectiveDateTime": "2018-10-04T14:17:59+01:00",
        "performer": [
          {
            "reference": "Performer/7096e518-2638-4c00-ab0e-504c20cd50b6"
          },
          {
            "reference": "Organization/25d5ad55-5657-4cbe-9b8b-2e993f19286e"
          }
        ],
        "valueQuantity": {
          "value": 37.5,
          "unit": "degree Celsius",
          "system": "http://unitsofmeasure.org",
          "code": "Cel"
        }
      }
    },
    {
      "fullUrl": "638c6821-eb51-4f1b-b8c0-5269d1df9b7c",
      "resource": {
        "resourceType": "Observation",
        "id": "638c6821-eb51-4f1b-b8c0-5269d1df9b7c",
       
        "identifier": [
          {
            "system": "https://tools.ietf.org/html/rfc4122",
            "value": "8b77f37d-eb6b-427c-9cd5-b1a2166b8fdb"
          }
        ],
        "status": "final",
        "category": [
          {
            "coding": [
              {
                "system": "http://terminology.hl7.org/CodeSystem/observation-category",
                "code": "vital-signs",
                "display": "Vital Signs"
              }
            ]
          }
        ],
        "code": {
          "coding": [
            {
              "system": "http://snomed.info/sct",
              "code": "75367002",
              "display": "Blood pressure"
            },
            {
              "system": "http://loinc.org",
              "code": "85354-9",
              "display": "Blood pressure panel with all children optional"
            }
          ]
        },
        "subject": {
          "reference": "Patient/ad2c58ab-ffab-4366-9c76-b0322e22e881"
        },
        "effectiveDateTime": "2018-10-04T14:17:59+01:00",
        "performer": [
          {
            "reference": "Performer/7096e518-2638-4c00-ab0e-504c20cd50b6"
          },
          {
            "reference": "Organization/25d5ad55-5657-4cbe-9b8b-2e993f19286e"
          }
        ],
        "bodySite": {
          "coding": [
            {
              "system": "http://snomed.info/sct",
              "code": "368209003",
              "display": "Right upper arm structure"
            }
          ]
        },
        "component": [
          {
            "code": {
              "coding": [
                {
                  "system": "http://snomed.info/sct",
                  "code": "72313002",
                  "display": "Systolic arterial pressure"
                },
                {
                  "system": "http://loinc.org",
                  "code": "8480-6",
                  "display": "Systolic blood pressure"
                }
              ]
            },
            "valueQuantity": {
              "value": 120,
              "unit": "millimeter of mercury",
              "system": "http://unitsofmeasure.org",
              "code": "mm[Hg]"
            }
          },
          {
            "code": {
              "coding": [
                {
                  "system": "http://snomed.info/sct",
                  "code": "1091811000000102",
                  "display": "Diastolic arterial pressure"
                },
                {
                  "system": "http://loinc.org",
                  "code": "8462-4",
                  "display": "Diastolic blood pressure"
                }
              ]
            },
            "valueQuantity": {
              "value": 60,
              "unit": "millimeter of mercury",
              "system": "http://unitsofmeasure.org",
              "code": "mm[Hg]"
            }
          }
        ]
      }
    },
    {
      "fullUrl": "fc6c6fa5-d8e8-4634-a19a-985325077cb2",
      "resource": {
        "resourceType": "Observation",
        "id": "fc6c6fa5-d8e8-4634-a19a-985325077cb2",
       
        "identifier": [
          {
            "system": "https://tools.ietf.org/html/rfc4122",
            "value": "2d16bf3f-4369-446c-8ceb-a0e103296208"
          }
        ],
        "status": "final",
        "category": [
          {
            "coding": [
              {
                "system": "http://terminology.hl7.org/CodeSystem/observation-category",
                "code": "survey",
                "display": "Survey"
              }
            ]
          }
        ],
        "code": {
          "coding": [
            {
              "system": "http://snomed.info/sct",
              "code": "1104441000000107",
              "display": "ACVPU (Alert Confusion Voice Pain Unresponsive) scale score"
            }
          ]
        },
        "subject": {
          "reference": "Patient/ad2c58ab-ffab-4366-9c76-b0322e22e881"
        },
        "effectiveDateTime": "2018-10-04T14:17:59+01:00",
        "performer": [
          {
            "reference": "Performer/7096e518-2638-4c00-ab0e-504c20cd50b6"
          },
          {
            "reference": "Organization/25d5ad55-5657-4cbe-9b8b-2e993f19286e"
          }
        ],
        "valueCodeableConcept": {
          "coding": [
            {
              "system": "http://snomed.info/sct",
              "code": "248234008",
              "display": "Mentally alert"
            }
          ]
        }
      }
    },
    {
      "fullUrl": "7096e518-2638-4c00-ab0e-504c20cd50b6",
      "resource": {
        "resourceType": "Practitioner",
        "id": "7096e518-2638-4c00-ab0e-504c20cd50b6",
       
        "identifier": [
          {
            "system": "https://fhir.nhs.uk/Id/sds-user-id",
            "value": "G61224777"
          }
        ],
        "name": [
          {
            "family": "Rastall",
            "given": [
              "Paul"
            ],
            "prefix": [
              "Dr"
            ]
          }
        ],
        "telecom": [
          {
            "system": "phone",
            "value": "01136323200",
            "use": "work"
          }
        ],
        "gender": "male"
      }
    },
    {
      "fullUrl": "25d5ad55-5657-4cbe-9b8b-2e993f19286e",
      "resource": {
        "resourceType": "Organization",
        "id": "25d5ad55-5657-4cbe-9b8b-2e993f19286e",
     
        "identifier": [
          {
            "system": "https://fhir.nhs.uk/Id/ods-organization-code",
            "value": "ABC123"
          }
        ],
        "name": "ANYTOWN ROYAL INFIRMARY",
        "telecom": [
          {
            "system": "phone",
            "value": "01134875516"
          }
        ],
        "address": [
          {
            "line": [
              "1 High Street"
            ],
            "city": "ANYTOWN",
            "postalCode": "LS1 9AM"
          }
        ]
      }
    },
    {
      "fullUrl": "ad2c58ab-ffab-4366-9c76-b0322e22e881",
      "resource": {
        "resourceType": "Patient",
        "id": "ad2c58ab-ffab-4366-9c76-b0322e22e881",
       
        "identifier": [
          {
            "extension": [
              {
                "url": "https://fhir.hl7.org.uk/StructureDefinition/Extension-UKCore-NHSNumberVerificationStatus",
                "valueCodeableConcept": {
                  "coding": [
                    {
                      "system": "https://fhir.hl7.org.uk/CodeSystem/UKCore-NHSNumberVerificationStatus",
                      "code": "01",
                      "display": "Number present and verified"
                    }
                  ]
                }
              }
            ],
            "system": "https://fhir.nhs.uk/Id/nhs-number",
            "value": "2378954317"
          }
        ],
        "name": [
          {
            "use": "official",
            "text": "Mr William Smith",
            "family": "SMITH",
            "given": [
              "William"
            ],
            "prefix": [
              "Mr"
            ]
          }
        ],
        "gender": "male",
        "birthDate": "1966-02-04",
        "address": [
          {
            "use": "home",
            "line": [
              "14 Sunny Mews"
            ],
            "city": "ANYTOWN",
            "district": "WEST YORKSHIRE",
            "postalCode": "LS17 4NK"
          }
        ],
        "maritalStatus": {
          "coding": [
            {
              "system": "http://hl7.org/fhir/v3/MaritalStatus",
              "code": "M",
              "display": "Married"
            }
          ]
        }
      }
    }
  ]
}